{
  "taskId": "health_medicine/crf_sdtm_mapping_1",
  "title": "CRF To SDTM Mapping Specification",
  "summary": "Create a field-level mapping CSV from clinical CRF and define.xml source documents to SDTM domain variables. The task has CM, VS, and DS variants with matching supplemental qualifier datasets.",
  "category": "health_medicine",
  "software": [
    "Python",
    "uv",
    "pandas",
    "pypdf",
    "lxml"
  ],
  "taskPrompt": "You are preparing a field-level CRF-to-SDTM mapping specification on Linux.\n\n## Your Task\nCreate the Concomitant Medications mapping for study C4591001.\n\n## Visible Inputs\n- Task brief: `base/input/task_brief.md`\n- Output contract: `base/input/output_contract.json`\n- Source documents directory: `base/input/source_documents`\n- Optional Python runtime manifest: `base/input/runtime_env`\n\nThe source documents include the sample CRF PDF, annotated CRF PDF, SDTM define.xml,\nand supplemental define.xml material. Use those files to identify form fields and\ntheir target SDTM variables for `CM` and, where applicable,\n`SUPPCM` supplemental qualifiers.\n\n## Required Output\nSave exactly one CSV file:\n\n```text\nbase/output/cm_mapping.csv\n```\n\nThe CSV must contain exactly these columns in this order:\n\n```text\ncrf_form, crf_field_label, crf_item_or_placeholder, sdtm_dataset, sdtm_variable, role, origin, mapping_rule, controlled_terms_or_expected_values, goes_to_suppqual, notes\n```\n\n## Example Row\n\nThe example illustrates the CSV schema, not the full mapping.\n\nMap every distinct annotated CM/SUPPCM target for the CM forms in the supplied aCRF, including numbered hidden dictionary fields and conditional follow-up controls. Include both targets when a field has multiple annotations. Include study-specific category/subcategory constants annotated at form-header level as separate rows; never attribute a header constant to a different numbered question. Exclude items marked NOT SUBMITTED, global identifiers such as STUDYID/DOMAIN/USUBJID, and XML-only variables with no annotation on these forms. A field's inclusion does not depend on whether its target origin is CRF, Assigned or Derived. Do not add SUPPQUAL infrastructure rows.\n\nUse the descriptive form title and parenthesized short form code, omitting the C4591001 study prefix and Repeating Form suffix. Use the printed field label without its question number, response options or explanatory instructions. Use its bracketed placeholder text without the brackets; for a conditional field with no placeholder, repeat its visible label. For a header constant use crf_field_label=Form header constant and crf_item_or_placeholder=Header. Use the sample CRF to cross-check broken aCRF text. Case, punctuation, spacing and [hidden] markers do not affect source-text matching; letters/digits and field identity do. A precise locator aCRF:<physical page>:<printed question number> may replace a damaged field label or placeholder; append :1 for the unnumbered End Date follow-up, and use :header for a header constant. A locator identifies the source only, never the target or its metadata.\n\nUse the following task role convention, not XML ItemRef Role Req/Exp/Perm: Identifier for source medication identifiers; Topic for the reported medication name; Grouping Qualifier for category/subcategory; Synonym Qualifier for a standardized dictionary name; Record Qualifier for numeric/text dose amounts; Variable Qualifier for dose units, frequency and route; Timing for dates and temporal reference points; Supplemental Qualifier for every SUPPCM mapping. Role case and spacing do not affect matching.\n\nUse the target ItemDef Origin Type from sdtm_define.xml. For SUPPCM resolve QVAL through ValueListRef and the QNAM-specific WhereClause. Do not infer CRF origin merely from appearance on the aCRF, or Derived from date formatting. Use CRF, Assigned or Derived (case-insensitive); aCRF is an alias for CRF only. The separate ADaM file is not the authority for the SUPPCM value-level origin.\n\nFor form-restricted categories and annotated constants, give the complete set of encoded values shown for that form, not the broader study code list. Use a semicolon-separated list or JSON array of strings; order, letter case, spacing and balanced quotation marks around each value are ignored, but duplicates, empty members, extra or missing values are incorrect. For other linked code lists, including external dictionaries, write the exact CodeListOID from the applicable ItemDef rather than invented descriptions or unavailable dictionary entries. CodeListOID case and punctuation are significant. For datetime with no code list use ISO 8601 date/datetime (ISO 8601 datetime and ISO 8601 date/time are equivalent); with neither a code list nor an annotated constant use an empty cell. Put transfer conditions in mapping_rule.\n\nmapping_rule and notes must be nonempty and field-specific. mapping_rule must name the exact target variable as a whole word; notes must cite the source form/page or XML evidence. Their wording is not compared to hidden sentences. The deterministic prose checks enforce nonempty text and the target token, not unrestricted natural-language equivalence.\n\nThe original binary grading is unchanged: all required mappings and structured values must be correct, with no missing, extra or duplicate mappings. Keep the exact eleven-column header/order; standard CSV quoting, UTF-8 BOM and row order are accepted. Dataset names, target names and YES/NO flags are case-sensitive. Formatting normalization never substitutes one source field or SDTM variable for another.\n\n```csv\ncrf_form,crf_field_label,crf_item_or_placeholder,sdtm_dataset,sdtm_variable,role,origin,mapping_rule,controlled_terms_or_expected_values,goes_to_suppqual,notes\nCONCOMITANT MEDICATIONS - BASELINE (CONMED BSL),What is the medication identifier?,Sponsor-Defined Identifier,CM,CMSPID,Identifier,CRF,Map the sponsor-defined medication identifier to CMSPID.,,NO,aCRF page 15 annotates Sponsor-Defined Identifier to CMSPID for baseline concomitant medications.\n```\n\n## Constraints\n- Produce a mapping specification only, not subject-level records or XPT datasets.\n- Keep all generated files inside `base/output`.\n- Do not modify files under `base/input`.\n- Use the visible task files only; do not use external web sources.\n",
  "agentMustDo": [
    "Read the variant's task brief and output contract.",
    "Inspect the sample CRF, annotated CRF, SDTM define.xml, and supplemental define.xml source documents.",
    "Identify CRF field-level mappings for the variant's primary SDTM dataset and supplemental qualifier dataset.",
    "Write exactly one mapping CSV with the required columns in the selected output directory."
  ],
  "inputFiles": [
    {
      "name": "task_brief.md",
      "format": "md",
      "path": "input/task_brief.md",
      "description": "Variant-specific instructions and output filename."
    },
    {
      "name": "output_contract.json",
      "format": "json",
      "path": "input/output_contract.json",
      "description": "Required CSV columns, allowed datasets, and format constraints."
    },
    {
      "name": "source_documents",
      "format": "pdf/xml",
      "path": "input/source_documents/",
      "description": "Sample CRF, annotated CRF, SDTM define.xml, and supplemental define.xml files."
    },
    {
      "name": "runtime_env",
      "format": "pyproject/uv.lock",
      "path": "input/runtime_env/",
      "description": "Optional Python dependency manifest for agents that want pandas, pypdf, or lxml."
    }
  ],
  "referenceFiles": [
    {
      "name": "cm_mapping.csv",
      "format": "csv",
      "path": "output/cm_mapping.csv",
      "description": "Required output for the CM base variant."
    },
    {
      "name": "vs_mapping.csv",
      "format": "csv",
      "path": "output/vs_mapping.csv",
      "description": "Required output for the VS variant."
    },
    {
      "name": "ds_mapping.csv",
      "format": "csv",
      "path": "output/ds_mapping.csv",
      "description": "Required output for the DS variant."
    }
  ],
  "evaluation": "The original binary grading is unchanged: all required mappings and structured values must be correct, with no missing, extra or duplicate mappings. Keep the exact eleven-column header/order; standard CSV quoting, UTF-8 BOM and row order are accepted. Dataset names, target names and YES/NO flags are case-sensitive. Formatting normalization never substitutes one source field or SDTM variable for another. mapping_rule and notes must be nonempty and field-specific. mapping_rule must name the exact target variable as a whole word; notes must cite the source form/page or XML evidence. Their wording is not compared to hidden sentences. The deterministic prose checks enforce nonempty text and the target token, not unrestricted natural-language equivalence.",
  "vm": {
    "machineType": "c4-standard-4",
    "snapshot": "cpu-free-ubuntu",
    "timeout": 7200
  },
  "taxonomy": {
    "domain_id": "4",
    "domain_code": "health_medicine",
    "subdomain_id": "4.5",
    "subdomain_code": "clinical_trials",
    "subdomain_name": "Clinical Research & Trial Operations",
    "classifier": {
      "model": "gpt-4o-mini",
      "classified_at": "2026-05-13T09:06:13.998209Z",
      "source": {
        "submission_id": "(backfill: no submission lookup)",
        "fields": [
          "taskPrompt",
          "title",
          "summary",
          "software"
        ],
        "mode": "backfill",
        "task_card_path": "tasks/health_medicine/crf_sdtm_mapping_1/task_card.json"
      },
      "rationale": "The task involves creating a mapping specification for clinical research data."
    }
  },
  "requiredSystemPackages": []
}
